onset	duration	block	trial	phase	trialtype	category	pairnum	accuracy	test_RT
18.51633	4.00527513400007	1	1	study	AB	Scene	7	NA	NA
30.52281	4.00342313399998	1	2	study	AB	Scene	1	NA	NA
36.52775	4.00077213400009	1	3	study	AB	Scene	4	NA	NA
44.529675	4.00193713400005	1	4	study	AB	Scene	8	0	NA
54.533258	4.00218113399998	1	5	study	AB	Scene	5	NA	NA
60.536844	4.00088013400002	1	6	study	AB	Scene	6	0	NA
68.539376	4.00144513400008	1	7	study	AB	Scene	3	1	NA
80.542401	4.00303613400001	1	8	study	AB	Scene	2	NA	NA
86.546895	4.00083113399999	1	9	study	BC	Scene	3	1	NA
96.549115	4.002447134	1	10	study	BC	Scene	5	NA	NA
102.553191	4.00066413400006	1	11	study	BC	Scene	6	0	NA
110.555214	4.00171913400004	1	12	study	BC	Scene	4	NA	NA
116.558189	4.00104413399998	1	13	study	BC	Scene	1	NA	NA
124.560734	4.00158113000001	1	14	study	BC	Scene	8	0	NA
130.564105	4.00053913000003	1	15	study	BC	Scene	7	NA	NA
138.566373	4.00131912999999	1	16	study	BC	Scene	2	NA	NA
154.77291	4.01769513000004	1	1	test	AC	Scene	8	0	2782.76286597
166.792292	4.0195911300001	1	2	test	AC	Scene	5	NA	0
174.813481	4.01816413000008	1	3	test	AC	Scene	7	NA	0
180.833182	4.01742513000013	1	4	test	AC	Scene	1	NA	0
186.851884	4.01770212999996	1	5	test	AC	Scene	4	NA	0
194.87101	4.01830813000002	1	6	test	AC	Scene	6	0	3149.07086597
200.890444	4.01787113000001	1	7	test	AC	Scene	2	NA	0
206.909553	4.01772013000009	1	8	test	AC	Scene	3	1	1523.41686597
216.929051	4.01876313000006	1	9	test	BC	Scene	8	1	1708.21386597
222.949261	4.01751513000013	1	10	test	AB	Scene	5	1	2476.93986597
230.968455	4.01806913000005	1	11	test	BC	Scene	6	1	3363.82986597
236.987693	4.01782813000001	1	12	test	BC	Scene	1	NA	0
245.006934	4.01829712999996	1	13	test	AB	Scene	2	NA	0
255.026582	4.01919613	1	14	test	AB	Scene	8	1	1256.24186597
265.046989	4.01928513000003	1	15	test	BC	Scene	3	1	1634.34086597
271.06789	4.01738013000006	1	16	test	AB	Scene	7	NA	0
283.086837	4.01972313000011	1	17	test	BC	Scene	2	1	1439.82786597
289.108055	4.01746213000006	1	18	test	AB	Scene	3	1	944.818865966
299.12664	4.01938313000009	1	19	test	AB	Scene	1	NA	0
305.147852	4.01717413000012	1	20	test	BC	Scene	4	1	1614.33986597
317.166017	4.02026013000007	1	21	test	AB	Scene	6	1	2914.04686597
323.187602	4.01767213000002	1	22	test	BC	Scene	5	1	1683.18486597
331.20668	4.01833613000013	1	23	test	BC	Scene	7	1	1499.00086597
337.226641	4.01734113000013	1	24	test	AB	Scene	4	NA	0
12.48387	4.00542999139999	2	1	study	AB	Face	6	1	NA
18.490837	4.00075399099999	2	2	study	AB	Face	2	1	NA
28.493094	4.00233499099999	2	3	study	AB	Face	1	0	NA
34.496636	4.00110299099999	2	4	study	AB	Face	4	1	NA
44.499066	4.00252499099999	2	5	study	AB	Face	3	1	NA
50.50295	4.00093299099999	2	6	study	AB	Face	8	1	NA
60.505066	4.002688991	2	7	study	AB	Face	5	NA	NA
66.509361	4.00068799099998	2	8	study	AB	Face	7	1	NA
72.511539	4.00079799099998	2	9	study	BC	Face	5	NA	NA
82.513568	4.00260999100001	2	10	study	BC	Face	6	1	NA
88.517733	4.00077099100001	2	11	study	BC	Face	8	1	NA
100.519631	4.00347599099999	2	12	study	BC	Face	1	0	NA
106.524186	4.001244991	2	13	study	BC	Face	4	1	NA
112.52701	4.00070899100001	2	14	study	BC	Face	7	1	NA
120.529551	4.00124799099998	2	15	study	BC	Face	3	1	NA
128.532041	4.00183799100001	2	16	study	BC	Face	2	1	NA
144.705753	4.01767499100001	2	1	test	AC	Face	4	1	2872.39600864
150.724971	4.01745599099999	2	2	test	AC	Face	8	1	2587.43200864
160.743915	4.01900899099998	2	3	test	AC	Face	1	0	2835.81900864
168.764544	4.018131991	2	4	test	AC	Face	5	NA	0
174.784366	4.01730999099999	2	5	test	AC	Face	7	1	1097.56700864
182.803155	4.01827399099999	2	6	test	AC	Face	2	1	1815.31300864
188.822837	4.01755799100001	2	7	test	AC	Face	6	1	1941.98200864
200.841715	4.01995899099999	2	8	test	AC	Face	3	1	1958.27000864
208.862916	4.01850799099999	2	9	test	BC	Face	6	1	1753.03700864
220.882664	4.020052991	2	10	test	AB	Face	5	1	3297.57200864
228.904124	4.01835299099999	2	11	test	BC	Face	7	1	1303.20400864
236.923935	4.01828899099998	2	12	test	BC	Face	1	1	1446.28200864
242.943821	4.01739699099999	2	13	test	BC	Face	3	1	1825.47100864
250.962798	4.01816899099998	2	14	test	AB	Face	6	1	1040.32000864
262.982365	4.01985399099998	2	15	test	BC	Face	8	1	1262.31100864
269.003589	4.01763799100002	2	16	test	AB	Face	1	0	1912.81800864
277.022593	4.01837799100002	2	17	test	AB	Face	2	1	1796.85100864
283.042331	4.01763399100001	2	18	test	AB	Face	3	1	1114.53100864
295.06142	4.01980199100001	2	19	test	AB	Face	7	1	1084.05500864
301.082669	4.01754899099999	2	20	test	AB	Face	4	1	1294.58500864
309.101736	4.01823199100001	2	21	test	AB	Face	8	1	1693.82300864
319.121318	4.01914699099999	2	22	test	BC	Face	2	1	1046.04700864
331.141973	4.01978599100001	2	23	test	BC	Face	4	1	2041.66200864
337.163039	4.01771799099998	2	24	test	BC	Face	5	1	1408.50900864
16.576699	4.0039675364	3	1	study	AB	Scene	3	1	NA
22.582261	4.0006955364	3	2	study	AB	Scene	7	1	NA
30.584032	4.0020035364	3	3	study	AB	Scene	6	1	NA
38.587437	4.0016805364	3	4	study	AB	Scene	5	NA	NA
44.590401	4.00101553640001	3	5	study	AB	Scene	2	1	NA
54.593112	4.002145536	3	6	study	AB	Scene	1	0	NA
68.596996	4.00367153599999	3	7	study	AB	Scene	8	1	NA
74.602403	4.000554536	3	8	study	AB	Scene	4	1	NA
80.604033	4.001234536	3	9	study	BC	Scene	2	1	NA
88.607077	4.001256536	3	10	study	BC	Scene	6	1	NA
94.609927	4.00070853600001	3	11	study	BC	Scene	4	1	NA
100.612113	4.000843536	3	12	study	BC	Scene	8	1	NA
108.614453	4.00159553600001	3	13	study	BC	Scene	7	1	NA
116.617519	4.00156853599999	3	14	study	BC	Scene	1	0	NA
122.620248	4.00116853599998	3	15	study	BC	Scene	3	1	NA
134.622595	4.00344253600002	3	16	study	BC	Scene	5	NA	NA
154.830939	4.019522536	3	1	test	AC	Scene	1	0	3070.5504636
160.851649	4.01781053599998	3	2	test	AC	Scene	8	1	1247.0844636
168.871056	4.01815753599998	3	3	test	AC	Scene	2	1	1414.5194636
174.890717	4.01745353599999	3	4	test	AC	Scene	6	1	1522.1594636
184.909468	4.01923953600001	3	5	test	AC	Scene	3	1	1591.9484636
190.9303	4.01736253600003	3	6	test	AC	Scene	4	1	819.179463598
198.948822	4.01859653600003	3	7	test	AC	Scene	7	1	2311.5254636
204.968504	4.01791353600004	3	8	test	AC	Scene	5	NA	0
210.988006	4.01736953600001	3	9	test	BC	Scene	1	1	1497.0584636
219.007195	4.01793253600004	3	10	test	BC	Scene	3	1	1380.6634636
231.026323	4.02010853599999	3	11	test	AB	Scene	8	1	1389.6244636
237.047809	4.01760853600001	3	12	test	AB	Scene	3	1	944.171463599
245.067164	4.01800953600003	3	13	test	BC	Scene	8	1	1577.1924636
251.087087	4.01703653600003	3	14	test	AB	Scene	4	1	1614.2234636
259.105307	4.01856753600002	3	15	test	AB	Scene	6	1	1258.9774636
265.12527	4.01760153599997	3	16	test	AB	Scene	1	1	3532.5034636
277.144199	4.01997553599998	3	17	test	BC	Scene	2	1	1321.0444636
289.165355	4.02007253600005	3	18	test	BC	Scene	7	1	2270.2244636
295.186927	4.01749653599999	3	19	test	BC	Scene	6	1	1569.2354636
305.206062	4.01889653600001	3	20	test	AB	Scene	2	1	995.208463599
313.226617	4.01809053599997	3	21	test	AB	Scene	5	1	1840.6544636
325.245982	4.02000953599997	3	22	test	BC	Scene	5	1	1562.8594636
331.26721	4.01774753599998	3	23	test	BC	Scene	4	1	1008.0624636
337.286489	4.01746953599999	3	24	test	AB	Scene	7	1	1703.7954636
12.530859	3.994488505	4	1	study	AB	Face	4	1	NA
18.526702	4.00094950500001	4	2	study	AB	Face	5	1	NA
30.528901	4.00337150500001	4	3	study	AB	Face	2	1	NA
36.533927	4.00063450499999	4	4	study	AB	Face	6	1	NA
44.535701	4.001948505	4	5	study	AB	Face	1	1	NA
52.5393	4.001433505	4	6	study	AB	Face	3	1	NA
60.542296	4.001497505	4	7	study	AB	Face	7	1	NA
66.545209	4.00089850499999	4	8	study	AB	Face	8	0	NA
76.547627	4.00230750500002	4	9	study	BC	Face	4	1	NA
82.55126	4.00101050500003	4	10	study	BC	Face	7	1	NA
88.554129	4.000428505	4	11	study	BC	Face	5	1	NA
94.555938	4.00091750500002	4	12	study	BC	Face	3	1	NA
104.558535	4.002163505	4	13	study	BC	Face	2	1	NA
110.562081	4.00094150499999	4	14	study	BC	Face	1	1	NA
122.564286	4.00336750500003	4	15	study	BC	Face	6	1	NA
128.568775	4.001163505	4	16	study	BC	Face	8	0	NA
152.74188	4.02068150500001	4	1	test	AC	Face	8	0	2280.583495
158.764284	4.017275505	4	2	test	AC	Face	5	1	2664.848495
166.783353	4.01795950500001	4	3	test	AC	Face	2	1	1695.321495
176.802738	4.01907550499999	4	4	test	AC	Face	4	1	1248.286495
184.823364	4.018196505	4	5	test	AC	Face	1	1	1127.275495
194.842551	4.019555505	4	6	test	AC	Face	3	1	2143.477495
200.863783	4.017280505	4	7	test	AC	Face	7	1	1034.283495
212.882203	4.02015050500003	4	8	test	AC	Face	6	1	1667.811495
218.903322	4.01804050500001	4	9	test	AB	Face	8	0	1324.262495
228.922792	4.01906350500003	4	10	test	AB	Face	5	1	991.105494996
234.943331	4.017530505	4	11	test	AB	Face	4	1	968.577494996
242.962512	4.01809550500001	4	12	test	BC	Face	4	1	1288.469495
248.98211	4.01745250500002	4	13	test	AB	Face	3	1	2244.261495
259.001017	4.01908950499998	4	14	test	BC	Face	8	1	1767.323495
271.020989	4.02040450499998	4	15	test	AB	Face	2	1	3484.223495
277.042853	4.01749850499997	4	16	test	BC	Face	7	1	1932.150495
285.06176	4.01835050499998	4	17	test	AB	Face	1	1	784.838494996
291.081731	4.01737350499997	4	18	test	BC	Face	1	1	1320.196495
299.100465	4.01839250499994	4	19	test	BC	Face	5	1	1335.064495
305.12056	4.01725450499996	4	20	test	BC	Face	6	1	976.119494996
313.138823	4.01873950500001	4	21	test	BC	Face	2	1	1219.759495
319.159331	4.01723850499996	4	22	test	AB	Face	6	1	961.356494996
331.178137	4.01972150499997	4	23	test	BC	Face	3	1	1578.954495
337.199663	4.01714950499998	4	24	test	AB	Face	7	1	1330.140495
18.531738	3.99608377889999	5	1	study	AB	Scene	4	NA	NA
24.529242	4.00087177889999	5	2	study	AB	Scene	5	1	NA
36.531503	4.00323477900001	5	3	study	AB	Scene	7	1	NA
42.535896	4.001136779	5	4	study	AB	Scene	1	1	NA
48.538497	4.00086777899999	5	5	study	AB	Scene	6	1	NA
54.540382	4.001271779	5	6	study	AB	Scene	2	1	NA
62.543186	4.001551779	5	7	study	AB	Scene	8	1	NA
70.545956	4.00187277899998	5	8	study	AB	Scene	3	1	NA
76.551036	3.99907877900002	5	9	study	BC	Scene	6	1	NA
82.551682	4.00076577899999	5	10	study	BC	Scene	7	1	NA
92.553867	4.00241377900001	5	11	study	BC	Scene	3	1	NA
98.55731	4.00126077899999	5	12	study	BC	Scene	8	1	NA
106.560137	4.00151777899999	5	13	study	BC	Scene	1	1	NA
116.563177	4.00231577900001	5	14	study	BC	Scene	4	NA	NA
124.567456	4.00111477899998	5	15	study	BC	Scene	5	1	NA
130.569923	4.00098677899998	5	16	study	BC	Scene	2	1	NA
152.759982	4.01946777900003	5	1	test	AC	Scene	7	1	1325.85122105
164.78093	4.019771779	5	2	test	AC	Scene	6	1	1466.65322105
172.802329	4.01812077900002	5	3	test	AC	Scene	8	1	1073.63022105
180.821986	4.018214779	5	4	test	AC	Scene	2	1	1705.06522105
186.842015	4.01718577899999	5	5	test	AC	Scene	4	NA	0
194.860413	4.01854177900002	5	6	test	AC	Scene	1	1	1396.21822105
202.880124	4.01857277899998	5	7	test	AC	Scene	5	1	3627.97522105
210.899959	4.01849277899999	5	8	test	AC	Scene	3	1	1587.75222105
216.919815	4.01759377899999	5	9	test	BC	Scene	8	1	1327.29922105
228.93874	4.019961779	5	10	test	BC	Scene	7	1	1880.84322105
234.960101	4.01759877900002	5	11	test	AB	Scene	2	1	1320.68322105
244.979089	4.01911077900001	5	12	test	BC	Scene	4	1	1598.23422105
250.999731	4.01746877900002	5	13	test	AB	Scene	7	1	899.228221053
257.018414	4.01777977900003	5	14	test	AB	Scene	3	1	1008.78722105
267.037524	4.01917577900004	5	15	test	BC	Scene	3	1	1377.77722105
273.057947	4.01774677900004	5	16	test	AB	Scene	4	1	3859.89322105
283.077288	4.01891277900001	5	17	test	AB	Scene	5	1	1324.21422105
289.097903	4.01725677900005	5	18	test	AB	Scene	1	1	1432.47322105
295.116587	4.01757377900003	5	19	test	AB	Scene	8	1	1108.87622105
303.135604	4.01830777900002	5	20	test	BC	Scene	5	1	1542.78022105
315.155305	4.01988977900002	5	21	test	AB	Scene	6	1	1156.03822105
325.176784	4.01891377900005	5	22	test	BC	Scene	2	1	1432.22122105
331.197292	4.017407779	5	23	test	BC	Scene	1	1	1391.55022105
337.216109	4.01758377900004	5	24	test	BC	Scene	6	1	1404.71322105
18.556404	3.99195778599997	6	1	study	AB	Face	2	1	NA
24.550172	4.00046578599992	6	2	study	AB	Face	5	1	NA
34.551805	4.00270978600001	6	3	study	AB	Face	4	1	NA
42.556109	4.00144678599999	6	4	study	AB	Face	1	1	NA
48.558952	4.00093378599994	6	5	study	AB	Face	3	1	NA
54.56113	4.00104778599996	6	6	study	AB	Face	6	1	NA
64.563659	4.00235178599994	6	7	study	AB	Face	7	1	NA
72.567186	4.00190878599997	6	8	study	AB	Face	8	1	NA
84.570671	4.00304978600002	6	9	study	BC	Face	1	1	NA
90.575319	4.00069078600001	6	10	study	BC	Face	8	1	NA
102.577424	4.00321578600002	6	11	study	BC	Face	6	1	NA
108.582029	4.00090078599994	6	12	study	BC	Face	3	1	NA
114.584187	4.00103578599999	6	13	study	BC	Face	4	1	NA
126.586872	4.00297378600002	6	14	study	BC	Face	2	1	NA
132.591271	4.000885786	6	15	study	BC	Face	5	1	NA
138.593268	4.00120478599999	6	16	study	BC	Face	7	1	NA
156.783204	4.01826978599993	6	1	test	AC	Face	4	1	1667.41121362
162.802887	4.01754478600004	6	2	test	AC	Face	6	1	2343.85421362
168.822002	4.01739878599995	6	3	test	AC	Face	1	1	2257.88421362
176.841027	4.01813278600003	6	4	test	AC	Face	3	1	1891.07921362
188.860584	4.01984878599996	6	5	test	AC	Face	2	1	1770.10321362
194.881978	4.01745178599993	6	6	test	AC	Face	5	1	1626.54621362
204.90057	4.019358786	6	7	test	AC	Face	7	1	1758.55321362
216.92132	4.01989478599996	6	8	test	AC	Face	8	1	1585.93721362
222.942246	4.01794178599995	6	9	test	BC	Face	6	1	1775.99521362
228.961741	4.01743978599997	6	10	test	AB	Face	8	1	1047.92121362
236.980294	4.01863678599999	6	11	test	BC	Face	4	1	1409.73121362
245.000264	4.01841278600003	6	12	test	BC	Face	1	1	1454.64221362
251.019971	4.01766878600002	6	13	test	BC	Face	5	1	1369.28221362
261.039232	4.01894578599997	6	14	test	AB	Face	3	1	822.71821362
267.0598	4.017336786	6	15	test	AB	Face	7	1	1059.29621362
275.078675	4.01821378599998	6	16	test	BC	Face	3	1	1242.65321362
281.098323	4.01754378599999	6	17	test	AB	Face	5	1	1564.27221362
287.117444	4.017401786	6	18	test	AB	Face	4	1	876.52921362
295.136161	4.01843678599998	6	19	test	BC	Face	2	1	1240.45621362
303.15596	4.01838778599998	6	20	test	BC	Face	8	1	920.26921362
313.175436	4.01941078599996	6	21	test	AB	Face	2	1	1399.00021362
319.195861	4.01798578599998	6	22	test	AB	Face	6	1	1248.63121362
331.215173	4.01995978600002	6	23	test	BC	Face	7	1	2250.58221362
337.236495	4.01759978599998	6	24	test	AB	Face	1	1	2049.58521362
14.521625	3.9949906868	7	1	study	AB	Scene	5	1	NA
26.518341	4.00285768679999	7	2	study	AB	Scene	7	1	NA
32.522357	4.0011736868	7	3	study	AB	Scene	1	1	NA
38.524935	4.0008896868	7	4	study	AB	Scene	2	1	NA
44.527087	4.0010336868	7	5	study	AB	Scene	3	1	NA
52.529393	4.00180768700001	7	6	study	AB	Scene	6	1	NA
60.532926	4.001355687	7	7	study	AB	Scene	4	1	NA
66.535535	4.00104168699999	7	8	study	AB	Scene	8	1	NA
76.538318	4.00209968699999	7	9	study	BC	Scene	4	1	NA
82.541996	4.000749687	7	10	study	BC	Scene	7	1	NA
90.543998	4.00182768699998	7	11	study	BC	Scene	8	1	NA
96.546987	4.00112968699999	7	12	study	BC	Scene	6	1	NA
108.549837	4.00290168699999	7	13	study	BC	Scene	2	1	NA
116.554305	4.00151868700002	7	14	study	BC	Scene	5	1	NA
122.556982	4.00113768700001	7	15	study	BC	Scene	1	1	NA
132.559148	4.00279668700002	7	16	study	BC	Scene	3	1	NA
150.733783	4.01850468700001	7	1	test	AC	Scene	8	1	1166.08331319
156.753981	4.01730468700003	7	2	test	AC	Scene	6	1	993.101313186
168.772544	4.020010687	7	3	test	AC	Scene	1	1	1786.58231319
174.794254	4.01727868700001	7	4	test	AC	Scene	4	1	1363.29531319
180.812626	4.01787068699999	7	5	test	AC	Scene	3	1	1174.88131319
190.831857	4.01918368699998	7	6	test	AC	Scene	7	1	1196.82231319
198.852511	4.01827368699998	7	7	test	AC	Scene	5	1	1427.32631319
204.872253	4.01752868700001	7	8	test	AC	Scene	2	1	1062.36231319
214.891291	4.01899568699996	7	9	test	AB	Scene	8	1	1407.91731319
220.91148	4.01776568699998	7	10	test	AB	Scene	1	1	1409.60331319
232.930492	4.020040687	7	11	test	BC	Scene	7	1	1261.46331319
238.952079	4.01745768699996	7	12	test	AB	Scene	2	1	1212.96131319
248.971157	4.01887868699996	7	13	test	BC	Scene	2	1	2003.17631319
254.991827	4.017206687	7	14	test	AB	Scene	6	1	1016.71531319
267.010643	4.01968268700002	7	15	test	BC	Scene	4	1	1451.27731319
275.032025	4.01805268699996	7	16	test	AB	Scene	5	1	1197.49931319
281.051804	4.01723068699997	7	17	test	BC	Scene	5	1	1103.41231319
295.070704	4.02041368699993	7	18	test	BC	Scene	3	1	1759.36231319
301.092694	4.01738268699998	7	19	test	AB	Scene	3	1	1091.84831319
309.111244	4.018581687	7	20	test	BC	Scene	6	1	1581.56431319
319.130972	4.01939568699995	7	21	test	AB	Scene	7	1	1071.85931319
325.151439	4.01788568699994	7	22	test	BC	Scene	1	1	1270.07631319
331.170955	4.01736868699995	7	23	test	AB	Scene	4	1	933.678313186
337.190186	4.01709868699999	7	24	test	BC	Scene	8	1	1247.34331319
16.542048	3.9973650924	8	1	study	AB	Face	8	1	NA
28.540532	4.00350809240001	8	2	study	AB	Face	7	0	NA
34.545349	4.0009810924	8	3	study	AB	Face	3	1	NA
42.547904	4.0015130924	8	4	study	AB	Face	6	1	NA
48.550651	4.0010530924	8	5	study	AB	Face	2	1	NA
56.552969	4.001819092	8	6	study	AB	Face	1	1	NA
62.556557	4.00056609199999	8	7	study	AB	Face	5	1	NA
68.558219	4.00119609200001	8	8	study	AB	Face	4	1	NA
74.560462	4.00124409200001	8	9	study	BC	Face	7	0	NA
82.562696	4.00209209200001	8	10	study	BC	Face	1	1	NA
94.566208	4.00320709199998	8	11	study	BC	Face	2	1	NA
100.570673	4.00103309200001	8	12	study	BC	Face	6	1	NA
106.572703	4.00133509200001	8	13	study	BC	Face	4	1	NA
114.575493	4.00159309199998	8	14	study	BC	Face	5	1	NA
122.578617	4.00154809199998	8	15	study	BC	Face	3	1	NA
132.581533	4.002503092	8	16	study	BC	Face	8	1	NA
148.756039	4.01754509200001	8	1	test	AC	Face	4	1	2097.45890763
158.774956	4.01912709199998	8	2	test	AC	Face	5	1	3529.40790763
164.795254	4.01783109200001	8	3	test	AC	Face	1	1	907.108907635
174.81428	4.01930309199999	8	4	test	AC	Face	2	1	2867.42490763
186.83472	4.020155092	8	5	test	AC	Face	6	1	1756.74790763
198.85653	4.019641092	8	6	test	AC	Face	3	1	2106.89790763
204.877746	4.01742009199999	8	7	test	AC	Face	7	0	3778.18090763
214.896812	4.01886309199999	8	8	test	AC	Face	8	1	1336.89190763
220.917271	4.017397092	8	9	test	BC	Face	3	1	1645.72990763
226.936345	4.01728309199997	8	10	test	AB	Face	5	1	1489.39090763
238.954898	4.020016092	8	11	test	AB	Face	3	1	1044.00490763
246.97621	4.018454092	8	12	test	AB	Face	6	1	3128.83290763
252.995935	4.01773109199997	8	13	test	BC	Face	4	1	1658.22290763
265.034173	4.017451092	8	14	test	BC	Face	2	1	913.900907635
271.053145	4.01745309199998	8	15	test	AB	Face	4	1	1391.10290763
277.07199	4.017598092	8	16	test	BC	Face	7	1	2823.54990763
285.090895	4.01843909199996	8	17	test	AB	Face	7	1	1949.39490763
295.110787	4.01904809200001	8	18	test	BC	Face	1	1	1702.51890763
303.130813	4.01877009199996	8	19	test	BC	Face	5	1	1239.66290763
311.151211	4.01812209199998	8	20	test	AB	Face	1	1	1011.95490763
317.170515	4.01781709199998	8	21	test	BC	Face	6	1	1977.54390763
325.189897	4.01818909200002	8	22	test	BC	Face	8	1	992.334907635
331.209156	4.01788809199998	8	23	test	AB	Face	2	1	1035.65490763
337.228731	4.01731909199996	8	24	test	AB	Face	8	1	931.850907635
