onset	duration	block	trial	phase	trialtype	category	pairnum	accuracy	test_RT
12.553606	4.00070931599991	1	1	study	AB	Scene	6	0	NA
18.555621	4.00098931599995	1	2	study	AB	Scene	7	0	NA
28.557775	4.00270431599989	1	3	study	AB	Scene	3	0	NA
34.561676	4.00109831599994	1	4	study	AB	Scene	1	0	NA
44.564146	4.00246131599992	1	5	study	AB	Scene	2	0	NA
50.567697	4.001240316	1	6	study	AB	Scene	4	0	NA
60.570305	4.00247131599992	1	7	study	AB	Scene	8	0	NA
66.573893	4.00117131599998	1	8	study	AB	Scene	5	NA	NA
72.576605	4.00079231599996	1	9	study	BC	Scene	2	0	NA
82.578969	4.00226331599992	1	10	study	BC	Scene	3	0	NA
88.583081	4.00044631599996	1	11	study	BC	Scene	1	0	NA
100.585074	4.00307231599992	1	12	study	BC	Scene	6	0	NA
106.589535	4.00090231599999	1	13	study	BC	Scene	8	0	NA
112.591765	4.00098931599992	1	14	study	BC	Scene	7	0	NA
120.594436	4.0013793159999	1	15	study	BC	Scene	5	NA	NA
128.597348	4.00154931599996	1	16	study	BC	Scene	4	0	NA
144.771117	4.01737231599991	1	1	test	AC	Scene	7	0	2794.09768429
150.789866	4.01757531999997	1	2	test	AC	Scene	5	NA	0
160.808658	4.01932131999993	1	3	test	AC	Scene	3	0	3867.31168429
168.829434	4.01828731999989	1	4	test	AC	Scene	4	0	2998.21068429
174.848841	4.01785131999993	1	5	test	AC	Scene	6	0	3732.95068429
182.868218	4.01822132000001	1	6	test	AC	Scene	8	0	3129.57468429
188.887712	4.01768931999995	1	7	test	AC	Scene	2	0	3366.19668429
200.906739	4.01995531999989	1	8	test	AC	Scene	1	0	3293.93868429
208.932047	4.01439331999994	1	9	test	BC	Scene	8	0	2794.85268429
220.947823	4.01991131999993	1	10	test	BC	Scene	7	1	3001.16068429
228.968827	4.01865431999991	1	11	test	AB	Scene	7	1	3309.39268429
236.988932	4.0182993199999	1	12	test	AB	Scene	5	1	3196.05968429
243.008634	4.01759532000005	1	13	test	AB	Scene	2	0	3876.64768429
251.027784	4.0181803199999	1	14	test	BC	Scene	1	1	2592.67268429
263.04698	4.02028931999986	1	15	test	AB	Scene	1	0	3275.05668429
269.068763	4.01746931999986	1	16	test	AB	Scene	6	1	2891.10068429
277.087474	4.01850431999989	1	17	test	AB	Scene	8	1	3289.40768429
283.107282	4.01767131999997	1	18	test	BC	Scene	5	0	2678.64768429
295.126745	4.01949631999992	1	19	test	BC	Scene	4	1	1417.19168429
301.147754	4.01748232000001	1	20	test	BC	Scene	6	1	2952.03068429
309.166452	4.01853432000004	1	21	test	BC	Scene	2	1	2010.19968429
319.186761	4.01874831999984	1	22	test	AB	Scene	3	0	2722.20168429
331.206989	4.01979331999988	1	23	test	AB	Scene	4	1	2531.15768429
337.228486	4.01728931999992	1	24	test	BC	Scene	3	1	1490.77168429
18.505449	3.99941480999999	2	1	study	AB	Face	7	0	NA
30.506506	4.00299080999998	2	2	study	AB	Face	8	0	NA
36.511101	4.00068580999999	2	3	study	AB	Face	4	1	NA
44.51329	4.00157580999999	2	4	study	AB	Face	3	1	NA
54.516148	4.00255780999998	2	5	study	AB	Face	6	0	NA
60.519954	4.00107881000001	2	6	study	AB	Face	5	1	NA
68.522626	4.00148281	2	7	study	AB	Face	1	1	NA
80.525369	4.00333280999999	2	8	study	AB	Face	2	1	NA
86.529829	4.00120081000001	2	9	study	BC	Face	6	0	NA
96.532833	4.00203181	2	10	study	BC	Face	4	1	NA
102.53643	4.00076181	2	11	study	BC	Face	7	0	NA
110.539007	4.00126980999998	2	12	study	BC	Face	1	1	NA
116.5415	4.00107381	2	13	study	BC	Face	5	1	NA
124.544101	4.00156081	2	14	study	BC	Face	2	1	NA
130.547056	4.00089680999999	2	15	study	BC	Face	3	1	NA
138.549017	4.00201281000001	2	16	study	BC	Face	8	0	NA
154.722886	4.01772980999999	2	1	test	AC	Face	6	0	2339.64418959
166.742031	4.01987581000003	2	2	test	AC	Face	8	0	2057.61218959
174.763062	4.01856480999998	2	3	test	AC	Face	4	1	2584.32518959
180.783298	4.01731780999998	2	4	test	AC	Face	5	1	2928.10318959
186.801907	4.01770980999997	2	5	test	AC	Face	3	1	2764.66118959
194.821323	4.01804081000001	2	6	test	AC	Face	2	1	2196.45218959
200.840689	4.01767381000001	2	7	test	AC	Face	1	1	2084.00418959
206.859985	4.01733380999998	2	8	test	AC	Face	7	0	2730.15718959
216.878996	4.01885081	2	9	test	BC	Face	2	1	1986.54818959
222.899873	4.01695281000002	2	10	test	BC	Face	1	1	1351.61318959
230.917821	4.01875581	2	11	test	AB	Face	4	1	1899.24318959
236.937669	4.01790380999999	2	12	test	BC	Face	4	1	1946.14818959
244.957072	4.01825081	2	13	test	BC	Face	5	1	2209.76318959
254.976516	4.01931380999996	2	14	test	BC	Face	3	1	1627.75918959
264.997139	4.01922381	2	15	test	AB	Face	8	0	2344.59518959
271.017694	4.01762780999998	2	16	test	AB	Face	6	1	2714.79818959
283.036709	4.01990880999999	2	17	test	AB	Face	2	1	1425.15018959
289.058229	4.01738481000002	2	18	test	BC	Face	6	1	1296.61818959
299.076821	4.01931081	2	19	test	AB	Face	5	1	1461.08918959
305.097961	4.01715680999996	2	20	test	AB	Face	1	1	1353.31618959
317.116803	4.01960480999999	2	21	test	BC	Face	7	0	1369.43518959
323.1376	4.01779881000001	2	22	test	AB	Face	3	1	2014.36518959
331.156992	4.01813280999998	2	23	test	BC	Face	8	1	1286.69418959
337.176465	4.01764980999997	2	24	test	AB	Face	7	1	1911.92218959
16.52566	4.00326566659999	3	1	study	AB	Scene	8	1	NA
28.53031	4.0032346666	3	2	study	AB	Scene	2	0	NA
34.535402	4.00044466659999	3	3	study	AB	Scene	1	0	NA
42.537001	4.001924667	3	4	study	AB	Scene	3	0	NA
48.540255	4.001000667	3	5	study	AB	Scene	6	1	NA
56.542675	4.001627667	3	6	study	AB	Scene	4	1	NA
62.54584	4.00079466700001	3	7	study	AB	Scene	5	0	NA
68.548461	4.00046466700001	3	8	study	AB	Scene	7	0	NA
74.550062	4.00115866700001	3	9	study	BC	Scene	7	0	NA
82.552369	4.00195166699999	3	10	study	BC	Scene	1	0	NA
94.555641	4.00328366700001	3	11	study	BC	Scene	8	1	NA
100.560258	4.00099466699999	3	12	study	BC	Scene	2	0	NA
106.562781	4.000764667	3	13	study	BC	Scene	5	0	NA
114.564917	4.001717667	3	14	study	BC	Scene	6	1	NA
122.568054	4.00166166700001	3	15	study	BC	Scene	4	1	NA
132.570966	4.00258066700003	3	16	study	BC	Scene	3	0	NA
148.74532	4.01781266699999	3	1	test	AC	Scene	2	0	2447.36633339
158.76458	4.01905466700002	3	2	test	AC	Scene	1	0	2445.46133339
164.785075	4.01755966699999	3	3	test	AC	Scene	4	1	1723.16433339
174.804019	4.01912866700001	3	4	test	AC	Scene	7	0	2029.45433339
186.824668	4.01975666700001	3	5	test	AC	Scene	5	0	2466.57433339
198.845795	4.019923667	3	6	test	AC	Scene	8	1	1890.91833339
204.867244	4.01747366700001	3	7	test	AC	Scene	3	0	2544.63433339
214.885866	4.01935166700001	3	8	test	AC	Scene	6	1	2648.03933339
220.908898	4.01531966700003	3	9	test	AB	Scene	8	1	2531.45633339
226.925442	4.01773766700001	3	10	test	AB	Scene	5	1	1569.80433339
238.944428	4.02007866699999	3	11	test	AB	Scene	1	0	2561.56633339
246.965894	4.01836566699998	3	12	test	BC	Scene	5	1	2196.33033339
252.98537	4.01784566699999	3	13	test	BC	Scene	1	1	1894.36933339
265.004693	4.01981266699999	3	14	test	AB	Scene	7	1	2016.30633339
271.02601	4.01749566700001	3	15	test	BC	Scene	3	1	2251.46133339
277.044786	4.01767966699996	3	16	test	BC	Scene	2	1	1893.81433339
285.064134	4.01808066699997	3	17	test	AB	Scene	2	1	2771.89833339
295.083782	4.03563966699998	3	18	test	AB	Scene	3	0	3027.13333339
303.120754	4.01841766699997	3	19	test	AB	Scene	6	1	1866.76933339
311.140783	4.01814666700002	3	20	test	BC	Scene	4	1	1519.34933339
317.160375	4.01755566700001	3	21	test	BC	Scene	6	1	3017.42833339
325.179234	4.01844566700002	3	22	test	AB	Scene	4	1	1463.29633339
331.199304	4.01734666699998	3	23	test	BC	Scene	8	1	1439.48233339
337.21844	4.01719366699998	3	24	test	BC	Scene	7	0	2013.31633339
16.504885	4.0077627557	4	1	study	AB	Face	5	0	NA
22.513829	4.0011307557	4	2	study	AB	Face	2	1	NA
30.516531	4.00149475569999	4	3	study	AB	Face	3	1	NA
38.519389	4.00171675599999	4	4	study	AB	Face	6	0	NA
44.52262	4.00081875599999	4	5	study	AB	Face	8	1	NA
54.525212	4.002059756	4	6	study	AB	Face	4	1	NA
68.528726	4.00391775600001	4	7	study	AB	Face	1	0	NA
74.533722	4.00125875600001	4	8	study	AB	Face	7	0	NA
80.536705	4.00057975600001	4	9	study	BC	Face	3	1	NA
88.538877	4.00149775600001	4	10	study	BC	Face	2	1	NA
94.541872	4.00081175600001	4	11	study	BC	Face	5	0	NA
100.544079	4.00090175600001	4	12	study	BC	Face	1	0	NA
108.546606	4.00145875600001	4	13	study	BC	Face	8	1	NA
116.549497	4.001635756	4	14	study	BC	Face	4	1	NA
122.552493	4.00094575600002	4	15	study	BC	Face	6	0	NA
134.554743	4.00332275600001	4	16	study	BC	Face	7	0	NA
154.746896	4.01891975599999	4	1	test	AC	Face	8	1	2046.97324432
160.767447	4.01737075600002	4	2	test	AC	Face	4	1	2147.38824432
168.785846	4.01871775600003	4	3	test	AC	Face	5	0	2432.41724432
174.805889	4.01767575600001	4	4	test	AC	Face	1	0	2033.99324432
184.824943	4.019122756	4	5	test	AC	Face	6	0	2143.81824432
190.845586	4.01747775600001	4	6	test	AC	Face	7	0	2728.43424432
198.864539	4.01825375599999	4	7	test	AC	Face	3	1	2061.78124432
204.884276	4.01750175600001	4	8	test	AC	Face	2	1	2317.68024432
210.903326	4.017448756	4	9	test	AB	Face	4	1	2130.81124432
218.922287	4.01823775599999	4	10	test	BC	Face	5	0	2540.64624432
230.941664	4.02016175599999	4	11	test	AB	Face	2	1	1202.58724432
236.963199	4.017608756	4	12	test	BC	Face	3	1	1372.94724432
244.982199	4.01837275600003	4	13	test	BC	Face	1	1	2872.43824432
251.002024	4.017494756	4	14	test	BC	Face	2	1	1840.80624432
259.021094	4.01817775599999	4	15	test	AB	Face	3	1	1425.33624432
265.040649	4.01763175599999	4	16	test	BC	Face	6	1	1193.98824432
277.059771	4.01979375599994	4	17	test	BC	Face	4	1	1609.44424432
289.081263	4.01959575600002	4	18	test	AB	Face	5	1	1806.60424432
295.102534	4.01728175600001	4	19	test	AB	Face	1	1	1271.52124432
305.121251	4.019103756	4	20	test	AB	Face	7	1	1208.02224432
313.141577	4.01853175600001	4	21	test	AB	Face	6	1	3236.08324432
325.161542	4.01985375599994	4	22	test	AB	Face	8	1	1245.31824432
331.183056	4.01734075600002	4	23	test	BC	Face	7	1	2368.17124432
337.201732	4.01762675599998	4	24	test	BC	Face	8	1	2157.07324432
18.514318	4.0010957769	5	1	study	AB	Scene	5	1	NA
24.516964	4.00074677690001	5	2	study	AB	Scene	1	1	NA
34.519355	4.0021967769	5	3	study	AB	Scene	7	1	NA
42.523054	4.00158377690001	5	4	study	AB	Scene	8	1	NA
48.526288	4.00067277690001	5	5	study	AB	Scene	3	1	NA
54.528435	4.000818777	5	6	study	AB	Scene	4	0	NA
64.530634	4.002492777	5	7	study	AB	Scene	6	0	NA
72.534514	4.001677777	5	8	study	AB	Scene	2	1	NA
84.537629	4.003187777	5	9	study	BC	Scene	3	1	NA
90.542199	4.00090777700002	5	10	study	BC	Scene	1	1	NA
102.544563	4.00315277700001	5	11	study	BC	Scene	4	0	NA
108.549218	4.00082677700001	5	12	study	BC	Scene	8	1	NA
114.551501	4.000839777	5	13	study	BC	Scene	7	1	NA
126.553723	4.003240777	5	14	study	BC	Scene	2	1	NA
132.558084	4.00118177700002	5	15	study	BC	Scene	6	0	NA
138.560476	4.00111377700002	5	16	study	BC	Scene	5	1	NA
156.733582	4.01834077700001	5	1	test	AC	Scene	2	1	3085.06822308
162.753325	4.017596777	5	2	test	AC	Scene	1	1	1941.71222308
168.772127	4.01775277700002	5	3	test	AC	Scene	3	1	2137.08422308
176.791057	4.01857577700002	5	4	test	AC	Scene	7	1	2979.88822308
188.811153	4.01976977700001	5	5	test	AC	Scene	4	0	2091.55022308
194.832404	4.01752277700001	5	6	test	AC	Scene	5	1	2411.92722308
204.851374	4.01904877699999	5	7	test	AC	Scene	6	0	2004.16422308
216.872101	4.019615777	5	8	test	AC	Scene	8	1	1986.03822308
222.89318	4.01753577700001	5	9	test	AB	Scene	6	1	2515.27022308
228.912536	4.017142777	5	10	test	BC	Scene	7	1	1412.44722308
236.931118	4.01830777700004	5	11	test	BC	Scene	2	1	2063.62722308
244.951292	4.01792277700003	5	12	test	BC	Scene	4	1	2081.48222308
250.970506	4.01766577700002	5	13	test	BC	Scene	3	1	2591.59822308
260.98957	4.019145777	5	14	test	AB	Scene	5	1	2591.52422308
267.010386	4.01729077700002	5	15	test	BC	Scene	6	1	1824.56322308
275.029464	4.01796177700005	5	16	test	BC	Scene	5	1	2267.42922308
281.049386	4.01703777699999	5	17	test	BC	Scene	8	1	1616.66822308
287.067739	4.01764377700002	5	18	test	BC	Scene	1	1	2398.84422308
295.087015	4.01815477700002	5	19	test	AB	Scene	7	1	2972.60322308
303.106763	4.01815877700003	5	20	test	AB	Scene	8	1	2381.03922308
313.126407	4.01901977700001	5	21	test	AB	Scene	1	1	1891.65122308
319.1469	4.01752477700001	5	22	test	AB	Scene	2	1	2725.41822308
331.166008	4.01970577700005	5	23	test	AB	Scene	3	1	2989.32822308
337.187552	4.01712077699997	5	24	test	AB	Scene	4	1	2968.33622308
18.526796	4.006349252	6	1	study	AB	Face	1	1	NA
24.534539	4.00091825200001	6	2	study	AB	Face	6	1	NA
36.536763	4.003320252	6	3	study	AB	Face	3	1	NA
42.541702	4.000670252	6	4	study	AB	Face	8	1	NA
48.543734	4.00097025200001	6	5	study	AB	Face	7	1	NA
54.546125	4.00088025200002	6	6	study	AB	Face	4	0	NA
62.548694	4.001388252	6	7	study	AB	Face	2	1	NA
70.551518	4.00164825200001	6	8	study	AB	Face	5	1	NA
76.55473	4.000723252	6	9	study	BC	Face	1	1	NA
82.556924	4.00086225200001	6	10	study	BC	Face	3	1	NA
92.559421	4.00220625199999	6	11	study	BC	Face	5	1	NA
98.563056	4.00089525200002	6	12	study	BC	Face	8	1	NA
106.565355	4.00164825200001	6	13	study	BC	Face	6	1	NA
116.568279	4.00259625200002	6	14	study	BC	Face	7	1	NA
124.572434	4.00152125200001	6	15	study	BC	Face	2	1	NA
130.575143	4.001102252	6	16	study	BC	Face	4	0	NA
152.765173	4.01961525199999	6	1	test	AC	Face	8	1	1797.77774799
164.786186	4.019897252	6	2	test	AC	Face	1	1	2051.62274799
172.807491	4.018339252	6	3	test	AC	Face	7	1	2338.50374799
180.827353	4.01822725200001	6	4	test	AC	Face	5	1	1965.27274799
186.847226	4.017356252	6	5	test	AC	Face	4	0	2159.71574799
194.866164	4.01817125199997	6	6	test	AC	Face	2	1	2015.83774799
202.885735	4.018348252	6	7	test	AC	Face	6	1	2467.69074799
210.905637	4.01819125199999	6	8	test	AC	Face	3	1	2626.48874799
216.925375	4.017456252	6	9	test	AB	Face	2	1	1715.01874799
228.944393	4.01972425199996	6	10	test	AB	Face	4	0	2299.70374799
234.965321	4.01776225199999	6	11	test	AB	Face	7	1	1821.19074799
244.984774	4.01885325199997	6	12	test	BC	Face	8	1	1417.64974799
251.005041	4.01756525199997	6	13	test	BC	Face	3	1	1385.38974799
257.023759	4.01782125200002	6	14	test	AB	Face	5	1	3252.93874799
267.042965	4.01916025199997	6	15	test	AB	Face	8	1	1422.90074799
273.06365	4.01743325199996	6	16	test	BC	Face	4	1	1519.93074799
283.082619	4.01900325199997	6	17	test	AB	Face	6	1	2183.65874799
289.103017	4.01758325199998	6	18	test	AB	Face	1	1	2785.13574799
295.122353	4.01723125199997	6	19	test	BC	Face	1	1	1559.69274799
303.140927	4.01840625199996	6	20	test	BC	Face	6	1	1733.82174799
315.160826	4.019799252	6	21	test	BC	Face	7	1	1577.09974799
325.181878	4.01924825199996	6	22	test	BC	Face	5	1	2080.01574799
331.202772	4.01735625199997	6	23	test	AB	Face	3	1	1764.12174799
337.221488	4.01759725199995	6	24	test	BC	Face	2	1	1427.41774799
12.454129	4.0006859315	7	1	study	AB	Scene	5	1	NA
18.456135	4.0010169315	7	2	study	AB	Scene	6	1	NA
30.458762	4.0029729315	7	3	study	AB	Scene	4	1	NA
36.462955	4.00111293149999	7	4	study	AB	Scene	3	0	NA
44.465635	4.00151393099999	7	5	study	AB	Scene	1	1	NA
52.468781	4.00145093099999	7	6	study	AB	Scene	7	0	NA
60.47252	4.000772931	7	7	study	AB	Scene	8	1	NA
66.474665	4.00094293100001	7	8	study	AB	Scene	2	0	NA
76.476872	4.00256893100002	7	9	study	BC	Scene	4	1	NA
82.480648	4.001125931	7	10	study	BC	Scene	8	1	NA
88.483059	4.00100493100002	7	11	study	BC	Scene	2	0	NA
94.485121	4.001272931	7	12	study	BC	Scene	3	0	NA
104.487711	4.00252193100001	7	13	study	BC	Scene	7	0	NA
110.492009	4.00051893100001	7	14	study	BC	Scene	1	1	NA
122.493777	4.003366931	7	15	study	BC	Scene	5	1	NA
128.498541	4.000934931	7	16	study	BC	Scene	6	1	NA
152.67175	4.020358931	7	1	test	AC	Scene	6	1	3229.21306852
158.693513	4.017559931	7	2	test	AC	Scene	4	1	2030.17306852
166.712783	4.01803593100002	7	3	test	AC	Scene	7	0	2436.51506852
176.732	4.01935893099999	7	4	test	AC	Scene	2	0	1716.68106852
184.752636	4.01847193100001	7	5	test	AC	Scene	5	1	3106.28906852
194.77241	4.019205931	7	6	test	AC	Scene	8	1	2984.26906852
200.792996	4.01761993099999	7	7	test	AC	Scene	1	1	2662.45606852
212.811988	4.01991493099998	7	8	test	AC	Scene	3	0	2488.21506852
218.833372	4.01753193099998	7	9	test	BC	Scene	5	1	1988.44906852
228.852574	4.01882393099999	7	10	test	BC	Scene	3	1	1350.74306852
234.873076	4.01731993100001	7	11	test	AB	Scene	6	1	3120.76306852
242.892111	4.01803693099998	7	12	test	BC	Scene	8	1	1342.14606852
248.91146	4.017648931	7	13	test	AB	Scene	4	1	1582.66006852
258.930314	4.01933593100001	7	14	test	AB	Scene	8	1	3266.40806852
270.95076	4.020178931	7	15	test	BC	Scene	6	1	2335.31206852
276.972244	4.01769693099998	7	16	test	AB	Scene	5	1	3025.71206852
284.991609	4.01808493100002	7	17	test	AB	Scene	3	0	2647.84306852
291.011269	4.01738193100004	7	18	test	BC	Scene	4	1	2624.10906852
299.030639	4.01775793099997	7	19	test	BC	Scene	2	NA	0
305.049957	4.017439931	7	20	test	AB	Scene	7	NA	0
313.068647	4.01850193100003	7	21	test	BC	Scene	7	1	2923.07606852
319.088593	4.01751493100001	7	22	test	BC	Scene	1	1	2264.12006852
331.107426	4.01997193100001	7	23	test	AB	Scene	1	1	2821.10006852
337.128828	4.01756893100002	7	24	test	AB	Scene	2	1	1584.53106852
14.530475	4.005027494	8	1	study	AB	Face	2	1	NA
26.537299	4.002828494	8	2	study	AB	Face	1	1	NA
32.54168	4.00077649400001	8	3	study	AB	Face	4	1	NA
38.54395	4.000809494	8	4	study	AB	Face	8	1	NA
44.546352	4.00069449400001	8	5	study	AB	Face	5	1	NA
52.548624	4.00150649400001	8	6	study	AB	Face	3	1	NA
60.551596	4.001617494	8	7	study	AB	Face	6	1	NA
66.554898	4.00064849400001	8	8	study	AB	Face	7	1	NA
76.557315	4.00206549400001	8	9	study	BC	Face	8	1	NA
82.560542	4.001124494	8	10	study	BC	Face	7	1	NA
90.563074	4.00167949400001	8	11	study	BC	Face	5	1	NA
96.566683	4.00040149400001	8	12	study	BC	Face	2	1	NA
108.568718	4.002990494	8	13	study	BC	Face	4	1	NA
116.573379	4.00139549400001	8	14	study	BC	Face	3	1	NA
122.576177	4.00090949400002	8	15	study	BC	Face	1	1	NA
132.578357	4.00256749400002	8	16	study	BC	Face	6	1	NA
150.769889	4.018036494	8	1	test	AC	Face	6	1	3027.24250559
156.789598	4.01732649400001	8	2	test	AC	Face	5	1	2427.22850559
168.808718	4.01949649400002	8	3	test	AC	Face	3	1	1782.46850559
174.829564	4.017623494	8	4	test	AC	Face	4	1	2684.05850559
180.848701	4.017471494	8	5	test	AC	Face	7	1	1838.68650559
190.86723	4.01946049399997	8	6	test	AC	Face	2	1	1602.10750559
198.888258	4.01817049399999	8	7	test	AC	Face	8	1	1747.48950559
204.907698	4.01773249400003	8	8	test	AC	Face	1	1	1751.18550559
214.926605	4.01935849400001	8	9	test	AB	Face	6	1	1294.14350559
220.947506	4.017416494	8	10	test	BC	Face	3	1	1424.46250559
232.96627	4.01994249399999	8	11	test	BC	Face	2	1	1790.90450559
238.987501	4.01771249400004	8	12	test	BC	Face	7	1	1457.26950559
249.006458	4.01925349399998	8	13	test	BC	Face	8	1	1108.92750559
255.027508	4.01720549400002	8	14	test	AB	Face	2	1	2124.11150559
267.046397	4.01960949400003	8	15	test	BC	Face	6	1	1999.69950559
275.067171	4.01858749400004	8	16	test	BC	Face	5	1	1378.98950559
281.087192	4.01752849400003	8	17	test	AB	Face	8	1	1501.22250559
295.106034	4.020775494	8	18	test	AB	Face	5	1	2135.57650559
301.128161	4.01761449399998	8	19	test	BC	Face	4	1	1512.44050559
309.146851	4.01869349400001	8	20	test	BC	Face	1	1	1623.25950559
319.167171	4.01887649400003	8	21	test	AB	Face	3	1	1787.89850559
325.187394	4.01765349400003	8	22	test	AB	Face	7	1	1905.66350559
331.206289	4.01771649399999	8	23	test	AB	Face	4	1	1508.31650559
337.225373	4.01762949399999	8	24	test	AB	Face	1	1	1367.31350559
